{"resourceType":"Bundle","type":"batch","entry":[{"resource":{"resourceType":"Patient","id":"1008","extension":[{"url":"https://fhir-data-converter.azurehealthcareapis.com/StructureDefinition/templateVersion","valueString":"1.0.0"},{"url":"https://fhir-data-converter.azurehealthcareapis.com/StructureDefinition/templateDate","valueString":"2021-12-01"},{"url":"https://fhir-data-converter.azurehealthcareapis.com/StructureDefinition/templateTargetMarket","valueString":"France"}],"identifier":[{"system":"43a2152b3c7855d3f80a2f9ae0b604a7aa948f4a31bca7997359690c6f6397af","value":"1787bd03bfe7096fd6d3fdefdc993cea4f76a98c7d16f644d1439eb5e96a8ad8"}],"meta":{"profile":["https://fhir-data-converter.azurehealthcareapis.com/StructureDefinition/FHIRPatientProfile"],"security":[{"system":"http://terminology.hl7.org/CodeSystem/v3-ObservationValue","code":"REDACTED","display":"redacted"},{"system":"http://terminology.hl7.org/CodeSystem/v3-ObservationValue","code":"CRYTOHASH","display":"cryptographic hash function"},{"code":"PERTURBED","display":"exact value is replaced with another exact value"}]},"name":[{"use":"official","given":["0c39479b5c1d69ed6833e0b6a4a3dc6dc8e8d6a5b3e789176bd03c348138372a"],"family":"c58a505db47baf6a5826834cc55913b8ccfb786efcc55a7bd2dda1348ec1b33c"}],"telecom":[{"system":"phone","value":"7454 662873"}],"gender":"other","birthDate":"2022-02-10"},"request":{"method":"PUT","url":"Patient/1008"}},{"resource":{"resourceType":"Claim","id":"1000","extension":[{"url":"https://fhir-data-converter.azurehealthcareapis.com/StructureDefinition/templateVersion","valueString":"1.0.0"},{"url":"https://fhir-data-converter.azurehealthcareapis.com/StructureDefinition/templateDate","valueString":"2021-12-01"},{"url":"https://fhir-data-converter.azurehealthcareapis.com/StructureDefinition/templateTargetMarket","valueString":"France"}],"identifier":[{"system":"b3bb76c3378e25cd888f95104ebd42f7549a57b593b6c4c1128422e5b229dc34","value":"ac65aaadf30893499c2f6f431c69bb342d42f5e13e6e8dfb719a0394984621bf"}],"status":"active","type":{"coding":[{"system":"http://terminology.hl7.org/CodeSystem/claim-type","code":"oral"}]},"use":"claim","created":"2021-12","patient":{"reference":"Patient/1008"},"enterer":{"reference":"Practitioner/5000"},"insurer":{"reference":"Organization/2020"},"provider":{"reference":"Organization/2030"},"priority":{"coding":[{"code":"normal"}]},"payee":{"type":{"coding":[{"code":"subscriber"}]}},"careTeam":[{"sequence":1,"provider":{"reference":"Practitioner/5000"}}],"diagnosis":[{"sequence":1,"diagnosisCodeableConcept":{"coding":[{"code":"60022"}]}}],"insurance":[{"sequence":1,"focal":true,"identifier":{"system":"https://fhir-data-converter.azurehealthcareapis.com/claim","value":"12345"},"coverage":{"reference":"Coverage/9876B1"}}],"item":[{"sequence":1,"careTeamSequence":[1],"productOrService":{"coding":[{"code":"11875059479265419"}]},"servicedDate":"1982-02-21","unitPrice":{"value":1234,"currency":"EUR"},"net":{"value":1234,"currency":"EUR"}}],"meta":{"security":[{"system":"http://terminology.hl7.org/CodeSystem/v3-ObservationValue","code":"CRYTOHASH","display":"cryptographic hash function"},{"code":"PERTURBED","display":"exact value is replaced with another exact value"},{"code":"GENERALIZED","display":"exact value is replaced with a general value"}]}},"request":{"method":"PUT","url":"Claim/1000"}},{"resource":{"resourceType":"Organization","id":"2020","extension":[{"url":"https://fhir-data-converter.azurehealthcareapis.com/StructureDefinition/templateVersion","valueString":"1.0.0"},{"url":"https://fhir-data-converter.azurehealthcareapis.com/StructureDefinition/templateDate","valueString":"2021-12-01"},{"url":"https://fhir-data-converter.azurehealthcareapis.com/StructureDefinition/templateTargetMarket","valueString":"France"}],"identifier":[{"system":"https://fhir-data-converter.azurehealthcareapis.com/organization","value":"org-2020"}],"name":"The Insurance Company","alias":["The Insurance Company"],"meta":{"security":[{"system":"http://terminology.hl7.org/CodeSystem/v3-ObservationValue","code":"REDACTED","display":"redacted"}]}},"request":{"method":"PUT","url":"Organization/2020"}},{"resource":{"resourceType":"Organization","id":"2030","extension":[{"url":"https://fhir-data-converter.azurehealthcareapis.com/StructureDefinition/templateVersion","valueString":"1.0.0"},{"url":"https://fhir-data-converter.azurehealthcareapis.com/StructureDefinition/templateDate","valueString":"2021-12-01"},{"url":"https://fhir-data-converter.azurehealthcareapis.com/StructureDefinition/templateTargetMarket","valueString":"France"}],"identifier":[{"system":"https://fhir-data-converter.azurehealthcareapis.com/organization","value":"org-2030"}],"name":"UK Medical Providers","alias":["UK Medical Providers"],"meta":{"security":[{"system":"http://terminology.hl7.org/CodeSystem/v3-ObservationValue","code":"REDACTED","display":"redacted"}]}},"request":{"method":"PUT","url":"Organization/2030"}},{"resource":{"resourceType":"Practitioner","id":"5000","extension":[{"url":"https://fhir-data-converter.azurehealthcareapis.com/StructureDefinition/templateVersion","valueString":"1.0.0"},{"url":"https://fhir-data-converter.azurehealthcareapis.com/StructureDefinition/templateDate","valueString":"2021-12-01"},{"url":"https://fhir-data-converter.azurehealthcareapis.com/StructureDefinition/templateTargetMarket","valueString":"France"}],"identifier":[{"system":"7dd09881c2b9ae35bb15df722383c63734e26ae86b047fc0f8bf6fd4c91fb5c4","value":"9ddae218d07c9ff5f8a2aac140d7868cbff4f2da61d166a340eac26b323edd50"}],"name":[{"use":"official","given":["e7985a70a1d324e3022628e3bdc5989e6b92cd7f9cb09cca9307e7a0d6865193"],"family":"e7985a70a1d324e3022628e3bdc5989e6b92cd7f9cb09cca9307e7a0d6865193"}],"meta":{"security":[{"system":"http://terminology.hl7.org/CodeSystem/v3-ObservationValue","code":"REDACTED","display":"redacted"},{"system":"http://terminology.hl7.org/CodeSystem/v3-ObservationValue","code":"CRYTOHASH","display":"cryptographic hash function"}]}},"request":{"method":"PUT","url":"Practitioner/5000"}}],"meta":{"security":[{"system":"http://terminology.hl7.org/CodeSystem/v3-ObservationValue","code":"REDACTED","display":"redacted"},{"system":"http://terminology.hl7.org/CodeSystem/v3-ObservationValue","code":"CRYTOHASH","display":"cryptographic hash function"},{"code":"PERTURBED","display":"exact value is replaced with another exact value"},{"code":"GENERALIZED","display":"exact value is replaced with a general value"}]}}
{"resourceType":"Bundle","type":"batch","entry":[{"resource":{"resourceType":"Patient","id":"1007","extension":[{"url":"https://fhir-data-converter.azurehealthcareapis.com/StructureDefinition/templateVersion","valueString":"1.0.0"},{"url":"https://fhir-data-converter.azurehealthcareapis.com/StructureDefinition/templateDate","valueString":"2021-12-01"},{"url":"https://fhir-data-converter.azurehealthcareapis.com/StructureDefinition/templateTargetMarket","valueString":"France"}],"identifier":[{"system":"43a2152b3c7855d3f80a2f9ae0b604a7aa948f4a31bca7997359690c6f6397af","value":"6ff97db4c8f953f0bc10804ec4b949de2b8c6d910e96fad27c04e830dc5bf707"}],"meta":{"profile":["https://fhir-data-converter.azurehealthcareapis.com/StructureDefinition/FHIRPatientProfile"],"security":[{"system":"http://terminology.hl7.org/CodeSystem/v3-ObservationValue","code":"REDACTED","display":"redacted"},{"system":"http://terminology.hl7.org/CodeSystem/v3-ObservationValue","code":"CRYTOHASH","display":"cryptographic hash function"},{"code":"PERTURBED","display":"exact value is replaced with another exact value"}]},"name":[{"use":"official","given":["07ccd732ced66c0d5de05681996565ddc1d70830fffecfd8881e8a3598ad15f9"],"family":"5451d8f05b50471e0e7503258552394841f595c8275eb02603f29b17ab4f6897"}],"telecom":[{"system":"phone","value":"7213 072284"}],"gender":"other","birthDate":"2022-02-10"},"request":{"method":"PUT","url":"Patient/1007"}},{"resource":{"resourceType":"Claim","id":"2000","extension":[{"url":"https://fhir-data-converter.azurehealthcareapis.com/StructureDefinition/templateVersion","valueString":"1.0.0"},{"url":"https://fhir-data-converter.azurehealthcareapis.com/StructureDefinition/templateDate","valueString":"2021-12-01"},{"url":"https://fhir-data-converter.azurehealthcareapis.com/StructureDefinition/templateTargetMarket","valueString":"France"}],"identifier":[{"system":"b3bb76c3378e25cd888f95104ebd42f7549a57b593b6c4c1128422e5b229dc34","value":"d9609e9279af67c3cb02cd733a9e01dff96deed13e06e987983f7db27f0fac11"}],"status":"draft","type":{"coding":[{"system":"http://terminology.hl7.org/CodeSystem/claim-type","code":"oral"}]},"use":"claim","created":"2021-12","patient":{"reference":"Patient/1007"},"enterer":{"reference":"Practitioner/5001"},"insurer":{"reference":"Organization/2021"},"provider":{"reference":"Organization/2031"},"priority":{"coding":[{"code":"normal"}]},"payee":{"type":{"coding":[{"code":"subscriber"}]}},"careTeam":[{"sequence":1,"provider":{"reference":"Practitioner/5001"}}],"diagnosis":[{"sequence":1,"diagnosisCodeableConcept":{"coding":[{"code":"60022"}]}}],"insurance":[{"sequence":1,"focal":true,"identifier":{"system":"https://fhir-data-converter.azurehealthcareapis.com/claim","value":"12345"},"coverage":{"reference":"Coverage/9876B1"}}],"item":[{"sequence":1,"careTeamSequence":[1],"productOrService":{"coding":[{"code":"11875059479265419"}]},"servicedDate":"1982-02-21","unitPrice":{"value":5678,"currency":"EUR"},"net":{"value":5678,"currency":"EUR"}}],"meta":{"security":[{"system":"http://terminology.hl7.org/CodeSystem/v3-ObservationValue","code":"CRYTOHASH","display":"cryptographic hash function"},{"code":"PERTURBED","display":"exact value is replaced with another exact value"},{"code":"GENERALIZED","display":"exact value is replaced with a general value"}]}},"request":{"method":"PUT","url":"Claim/2000"}},{"resource":{"resourceType":"Organization","id":"2021","extension":[{"url":"https://fhir-data-converter.azurehealthcareapis.com/StructureDefinition/templateVersion","valueString":"1.0.0"},{"url":"https://fhir-data-converter.azurehealthcareapis.com/StructureDefinition/templateDate","valueString":"2021-12-01"},{"url":"https://fhir-data-converter.azurehealthcareapis.com/StructureDefinition/templateTargetMarket","valueString":"France"}],"identifier":[{"system":"https://fhir-data-converter.azurehealthcareapis.com/organization","value":"org-2021"}],"name":"Safe-House","alias":["Safe-House"],"meta":{"security":[{"system":"http://terminology.hl7.org/CodeSystem/v3-ObservationValue","code":"REDACTED","display":"redacted"}]}},"request":{"method":"PUT","url":"Organization/2021"}},{"resource":{"resourceType":"Organization","id":"2031","extension":[{"url":"https://fhir-data-converter.azurehealthcareapis.com/StructureDefinition/templateVersion","valueString":"1.0.0"},{"url":"https://fhir-data-converter.azurehealthcareapis.com/StructureDefinition/templateDate","valueString":"2021-12-01"},{"url":"https://fhir-data-converter.azurehealthcareapis.com/StructureDefinition/templateTargetMarket","valueString":"France"}],"identifier":[{"system":"https://fhir-data-converter.azurehealthcareapis.com/organization","value":"org-2031"}],"name":"Crawford Providers","alias":["Crawford Providers"],"meta":{"security":[{"system":"http://terminology.hl7.org/CodeSystem/v3-ObservationValue","code":"REDACTED","display":"redacted"}]}},"request":{"method":"PUT","url":"Organization/2031"}},{"resource":{"resourceType":"Practitioner","id":"5001","extension":[{"url":"https://fhir-data-converter.azurehealthcareapis.com/StructureDefinition/templateVersion","valueString":"1.0.0"},{"url":"https://fhir-data-converter.azurehealthcareapis.com/StructureDefinition/templateDate","valueString":"2021-12-01"},{"url":"https://fhir-data-converter.azurehealthcareapis.com/StructureDefinition/templateTargetMarket","valueString":"France"}],"identifier":[{"system":"7dd09881c2b9ae35bb15df722383c63734e26ae86b047fc0f8bf6fd4c91fb5c4","value":"bb6a64fdda08526c022e43cdbb82d682968efda3ab74d8eba913c25f1d13762e"}],"name":[{"use":"official","given":["22c39ef7b5e17a9f8457d7a8e3fa6690a677dcdb8f8672fb36cf53189add31f7"],"family":"22c39ef7b5e17a9f8457d7a8e3fa6690a677dcdb8f8672fb36cf53189add31f7"}],"meta":{"security":[{"system":"http://terminology.hl7.org/CodeSystem/v3-ObservationValue","code":"REDACTED","display":"redacted"},{"system":"http://terminology.hl7.org/CodeSystem/v3-ObservationValue","code":"CRYTOHASH","display":"cryptographic hash function"}]}},"request":{"method":"PUT","url":"Practitioner/5001"}}],"meta":{"security":[{"system":"http://terminology.hl7.org/CodeSystem/v3-ObservationValue","code":"REDACTED","display":"redacted"},{"system":"http://terminology.hl7.org/CodeSystem/v3-ObservationValue","code":"CRYTOHASH","display":"cryptographic hash function"},{"code":"PERTURBED","display":"exact value is replaced with another exact value"},{"code":"GENERALIZED","display":"exact value is replaced with a general value"}]}}
{"resourceType":"Bundle","type":"batch","entry":[{"resource":{"resourceType":"Patient","id":"1006","extension":[{"url":"https://fhir-data-converter.azurehealthcareapis.com/StructureDefinition/templateVersion","valueString":"1.0.0"},{"url":"https://fhir-data-converter.azurehealthcareapis.com/StructureDefinition/templateDate","valueString":"2021-12-01"},{"url":"https://fhir-data-converter.azurehealthcareapis.com/StructureDefinition/templateTargetMarket","valueString":"France"}],"identifier":[{"system":"43a2152b3c7855d3f80a2f9ae0b604a7aa948f4a31bca7997359690c6f6397af","value":"82de7a79ec9fcfa1a0cb5b57f6d7427b6e6e80fe57dc9598c2a8b3eacc0d6d72"}],"meta":{"profile":["https://fhir-data-converter.azurehealthcareapis.com/StructureDefinition/FHIRPatientProfile"],"security":[{"system":"http://terminology.hl7.org/CodeSystem/v3-ObservationValue","code":"REDACTED","display":"redacted"},{"system":"http://terminology.hl7.org/CodeSystem/v3-ObservationValue","code":"CRYTOHASH","display":"cryptographic hash function"},{"code":"PERTURBED","display":"exact value is replaced with another exact value"}]},"name":[{"use":"official","given":["a66b4d25dc1cf27cacc97f70adad37de1de45a5468574dfad608209efc2f3304"],"family":"074a5773f3b3e42b582722a7df54d89e904cf1cfb91d0508f2a73e17b4016c89"}],"telecom":[{"system":"phone","value":"7199 284153"}],"gender":"other","birthDate":"2022-02-10"},"request":{"method":"PUT","url":"Patient/1006"}},{"resource":{"resourceType":"Claim","id":"3000","extension":[{"url":"https://fhir-data-converter.azurehealthcareapis.com/StructureDefinition/templateVersion","valueString":"1.0.0"},{"url":"https://fhir-data-converter.azurehealthcareapis.com/StructureDefinition/templateDate","valueString":"2021-12-01"},{"url":"https://fhir-data-converter.azurehealthcareapis.com/StructureDefinition/templateTargetMarket","valueString":"France"}],"identifier":[{"system":"b3bb76c3378e25cd888f95104ebd42f7549a57b593b6c4c1128422e5b229dc34","value":"2fb0625f08190db2541eb984f2f237f11d61dac7442c79ae15a2ee87849ac423"}],"status":"active","type":{"coding":[{"system":"http://terminology.hl7.org/CodeSystem/claim-type","code":"oral"}]},"use":"claim","created":"2021-12","patient":{"reference":"Patient/1006"},"enterer":{"reference":"Practitioner/5002"},"insurer":{"reference":"Organization/2022"},"provider":{"reference":"Organization/2032"},"priority":{"coding":[{"code":"normal"}]},"payee":{"type":{"coding":[{"code":"subscriber"}]}},"careTeam":[{"sequence":1,"provider":{"reference":"Practitioner/5002"}}],"diagnosis":[{"sequence":1,"diagnosisCodeableConcept":{"coding":[{"code":"60022"}]}}],"insurance":[{"sequence":1,"focal":true,"identifier":{"system":"https://fhir-data-converter.azurehealthcareapis.com/claim","value":"12345"},"coverage":{"reference":"Coverage/9876B1"}}],"item":[{"sequence":1,"careTeamSequence":[1],"productOrService":{"coding":[{"code":"11875059479265419"}]},"servicedDate":"1982-02-21","unitPrice":{"value":9012,"currency":"EUR"},"net":{"value":9012,"currency":"EUR"}}],"meta":{"security":[{"system":"http://terminology.hl7.org/CodeSystem/v3-ObservationValue","code":"CRYTOHASH","display":"cryptographic hash function"},{"code":"PERTURBED","display":"exact value is replaced with another exact value"},{"code":"GENERALIZED","display":"exact value is replaced with a general value"}]}},"request":{"method":"PUT","url":"Claim/3000"}},{"resource":{"resourceType":"Organization","id":"2022","extension":[{"url":"https://fhir-data-converter.azurehealthcareapis.com/StructureDefinition/templateVersion","valueString":"1.0.0"},{"url":"https://fhir-data-converter.azurehealthcareapis.com/StructureDefinition/templateDate","valueString":"2021-12-01"},{"url":"https://fhir-data-converter.azurehealthcareapis.com/StructureDefinition/templateTargetMarket","valueString":"France"}],"identifier":[{"system":"https://fhir-data-converter.azurehealthcareapis.com/organization","value":"org-2022"}],"name":"Broadway Insurances","alias":["Broadway Insurances"],"meta":{"security":[{"system":"http://terminology.hl7.org/CodeSystem/v3-ObservationValue","code":"REDACTED","display":"redacted"}]}},"request":{"method":"PUT","url":"Organization/2022"}},{"resource":{"resourceType":"Organization","id":"2032","extension":[{"url":"https://fhir-data-converter.azurehealthcareapis.com/StructureDefinition/templateVersion","valueString":"1.0.0"},{"url":"https://fhir-data-converter.azurehealthcareapis.com/StructureDefinition/templateDate","valueString":"2021-12-01"},{"url":"https://fhir-data-converter.azurehealthcareapis.com/StructureDefinition/templateTargetMarket","valueString":"France"}],"identifier":[{"system":"https://fhir-data-converter.azurehealthcareapis.com/organization","value":"org-2032"}],"name":"The Provider","alias":["The Provider"],"meta":{"security":[{"system":"http://terminology.hl7.org/CodeSystem/v3-ObservationValue","code":"REDACTED","display":"redacted"}]}},"request":{"method":"PUT","url":"Organization/2032"}},{"resource":{"resourceType":"Practitioner","id":"5002","extension":[{"url":"https://fhir-data-converter.azurehealthcareapis.com/StructureDefinition/templateVersion","valueString":"1.0.0"},{"url":"https://fhir-data-converter.azurehealthcareapis.com/StructureDefinition/templateDate","valueString":"2021-12-01"},{"url":"https://fhir-data-converter.azurehealthcareapis.com/StructureDefinition/templateTargetMarket","valueString":"France"}],"identifier":[{"system":"7dd09881c2b9ae35bb15df722383c63734e26ae86b047fc0f8bf6fd4c91fb5c4","value":"c08311584947bca6b375b09d8960a1172c8a36b96d93b970cc9f99a24530a544"}],"name":[{"use":"official","given":["d46054324d18c593f91c1daa8ca9aad273964649340ed38d0851151f1b822ae8"],"family":"d46054324d18c593f91c1daa8ca9aad273964649340ed38d0851151f1b822ae8"}],"meta":{"security":[{"system":"http://terminology.hl7.org/CodeSystem/v3-ObservationValue","code":"REDACTED","display":"redacted"},{"system":"http://terminology.hl7.org/CodeSystem/v3-ObservationValue","code":"CRYTOHASH","display":"cryptographic hash function"}]}},"request":{"method":"PUT","url":"Practitioner/5002"}}],"meta":{"security":[{"system":"http://terminology.hl7.org/CodeSystem/v3-ObservationValue","code":"REDACTED","display":"redacted"},{"system":"http://terminology.hl7.org/CodeSystem/v3-ObservationValue","code":"CRYTOHASH","display":"cryptographic hash function"},{"code":"PERTURBED","display":"exact value is replaced with another exact value"},{"code":"GENERALIZED","display":"exact value is replaced with a general value"}]}}
{"resourceType":"Bundle","type":"batch","entry":[{"resource":{"resourceType":"Patient","id":"1005","extension":[{"url":"https://fhir-data-converter.azurehealthcareapis.com/StructureDefinition/templateVersion","valueString":"1.0.0"},{"url":"https://fhir-data-converter.azurehealthcareapis.com/StructureDefinition/templateDate","valueString":"2021-12-01"},{"url":"https://fhir-data-converter.azurehealthcareapis.com/StructureDefinition/templateTargetMarket","valueString":"France"}],"identifier":[{"system":"43a2152b3c7855d3f80a2f9ae0b604a7aa948f4a31bca7997359690c6f6397af","value":"bd6eab877b1d2435a5e11d45f78e39a014d11df8e609b4e1e94df54c1b62a67d"}],"meta":{"profile":["https://fhir-data-converter.azurehealthcareapis.com/StructureDefinition/FHIRPatientProfile"],"security":[{"system":"http://terminology.hl7.org/CodeSystem/v3-ObservationValue","code":"REDACTED","display":"redacted"},{"system":"http://terminology.hl7.org/CodeSystem/v3-ObservationValue","code":"CRYTOHASH","display":"cryptographic hash function"},{"code":"PERTURBED","display":"exact value is replaced with another exact value"}]},"name":[{"use":"official","given":["f29560be78eb5ffe22f5e13463b937fb1e68a65250b703610bb5dbcfeb91e1f8"],"family":"0ddb520be04b97d5e76c3dd40eab34b11e9433d1645a7b8ba1e7d96144b0b561"}],"telecom":[{"system":"phone","value":"7700 188943"}],"gender":"other","birthDate":"2022-02-10"},"request":{"method":"PUT","url":"Patient/1005"}},{"resource":{"resourceType":"Claim","id":"4000","extension":[{"url":"https://fhir-data-converter.azurehealthcareapis.com/StructureDefinition/templateVersion","valueString":"1.0.0"},{"url":"https://fhir-data-converter.azurehealthcareapis.com/StructureDefinition/templateDate","valueString":"2021-12-01"},{"url":"https://fhir-data-converter.azurehealthcareapis.com/StructureDefinition/templateTargetMarket","valueString":"France"}],"identifier":[{"system":"b3bb76c3378e25cd888f95104ebd42f7549a57b593b6c4c1128422e5b229dc34","value":"0fc599984aedfb8957d427911eb684e239c88838c9754fb780448ca65a95b236"}],"status":"active","type":{"coding":[{"system":"http://terminology.hl7.org/CodeSystem/claim-type","code":"oral"}]},"use":"claim","created":"2021-12","patient":{"reference":"Patient/1005"},"enterer":{"reference":"Practitioner/5003"},"insurer":{"reference":"Organization/2023"},"provider":{"reference":"Organization/2033"},"priority":{"coding":[{"code":"normal"}]},"payee":{"type":{"coding":[{"code":"subscriber"}]}},"careTeam":[{"sequence":1,"provider":{"reference":"Practitioner/5003"}}],"diagnosis":[{"sequence":1,"diagnosisCodeableConcept":{"coding":[{"code":"60022"}]}}],"insurance":[{"sequence":1,"focal":true,"identifier":{"system":"https://fhir-data-converter.azurehealthcareapis.com/claim","value":"12345"},"coverage":{"reference":"Coverage/9876B1"}}],"item":[{"sequence":1,"careTeamSequence":[1],"productOrService":{"coding":[{"code":"11875059479265419"}]},"servicedDate":"1982-02-21","unitPrice":{"value":79,"currency":"EUR"},"net":{"value":79,"currency":"EUR"}}],"meta":{"security":[{"system":"http://terminology.hl7.org/CodeSystem/v3-ObservationValue","code":"CRYTOHASH","display":"cryptographic hash function"},{"code":"PERTURBED","display":"exact value is replaced with another exact value"},{"code":"GENERALIZED","display":"exact value is replaced with a general value"}]}},"request":{"method":"PUT","url":"Claim/4000"}},{"resource":{"resourceType":"Organization","id":"2023","extension":[{"url":"https://fhir-data-converter.azurehealthcareapis.com/StructureDefinition/templateVersion","valueString":"1.0.0"},{"url":"https://fhir-data-converter.azurehealthcareapis.com/StructureDefinition/templateDate","valueString":"2021-12-01"},{"url":"https://fhir-data-converter.azurehealthcareapis.com/StructureDefinition/templateTargetMarket","valueString":"France"}],"identifier":[{"system":"https://fhir-data-converter.azurehealthcareapis.com/organization","value":"org-2023"}],"name":"St Helens Insurance","alias":["St Helens Insurance"],"meta":{"security":[{"system":"http://terminology.hl7.org/CodeSystem/v3-ObservationValue","code":"REDACTED","display":"redacted"}]}},"request":{"method":"PUT","url":"Organization/2023"}},{"resource":{"resourceType":"Organization","id":"2033","extension":[{"url":"https://fhir-data-converter.azurehealthcareapis.com/StructureDefinition/templateVersion","valueString":"1.0.0"},{"url":"https://fhir-data-converter.azurehealthcareapis.com/StructureDefinition/templateDate","valueString":"2021-12-01"},{"url":"https://fhir-data-converter.azurehealthcareapis.com/StructureDefinition/templateTargetMarket","valueString":"France"}],"identifier":[{"system":"https://fhir-data-converter.azurehealthcareapis.com/organization","value":"org-2033"}],"name":"MedProv","alias":["MedProv"],"meta":{"security":[{"system":"http://terminology.hl7.org/CodeSystem/v3-ObservationValue","code":"REDACTED","display":"redacted"}]}},"request":{"method":"PUT","url":"Organization/2033"}},{"resource":{"resourceType":"Practitioner","id":"5003","extension":[{"url":"https://fhir-data-converter.azurehealthcareapis.com/StructureDefinition/templateVersion","valueString":"1.0.0"},{"url":"https://fhir-data-converter.azurehealthcareapis.com/StructureDefinition/templateDate","valueString":"2021-12-01"},{"url":"https://fhir-data-converter.azurehealthcareapis.com/StructureDefinition/templateTargetMarket","valueString":"France"}],"identifier":[{"system":"7dd09881c2b9ae35bb15df722383c63734e26ae86b047fc0f8bf6fd4c91fb5c4","value":"36e48103e202c9dd9726585d80d6af1d2451af93699d7119aa384e88075e31b8"}],"name":[{"use":"official","given":["0fa731e23390b798a51fd3b78144a65c25cc651c43c19f2d02457c52908031f3"],"family":"0fa731e23390b798a51fd3b78144a65c25cc651c43c19f2d02457c52908031f3"}],"meta":{"security":[{"system":"http://terminology.hl7.org/CodeSystem/v3-ObservationValue","code":"REDACTED","display":"redacted"},{"system":"http://terminology.hl7.org/CodeSystem/v3-ObservationValue","code":"CRYTOHASH","display":"cryptographic hash function"}]}},"request":{"method":"PUT","url":"Practitioner/5003"}}],"meta":{"security":[{"system":"http://terminology.hl7.org/CodeSystem/v3-ObservationValue","code":"REDACTED","display":"redacted"},{"system":"http://terminology.hl7.org/CodeSystem/v3-ObservationValue","code":"CRYTOHASH","display":"cryptographic hash function"},{"code":"PERTURBED","display":"exact value is replaced with another exact value"},{"code":"GENERALIZED","display":"exact value is replaced with a general value"}]}}
{"resourceType":"Bundle","type":"batch","entry":[{"resource":{"resourceType":"Patient","id":"1004","extension":[{"url":"https://fhir-data-converter.azurehealthcareapis.com/StructureDefinition/templateVersion","valueString":"1.0.0"},{"url":"https://fhir-data-converter.azurehealthcareapis.com/StructureDefinition/templateDate","valueString":"2021-12-01"},{"url":"https://fhir-data-converter.azurehealthcareapis.com/StructureDefinition/templateTargetMarket","valueString":"France"}],"identifier":[{"system":"43a2152b3c7855d3f80a2f9ae0b604a7aa948f4a31bca7997359690c6f6397af","value":"746ae6ca63d45b7db89b3a9c72a784657e6ab8659c2fbc0e75d8dffadef20483"}],"meta":{"profile":["https://fhir-data-converter.azurehealthcareapis.com/StructureDefinition/FHIRPatientProfile"],"security":[{"system":"http://terminology.hl7.org/CodeSystem/v3-ObservationValue","code":"REDACTED","display":"redacted"},{"system":"http://terminology.hl7.org/CodeSystem/v3-ObservationValue","code":"CRYTOHASH","display":"cryptographic hash function"},{"code":"PERTURBED","display":"exact value is replaced with another exact value"}]},"name":[{"use":"official","given":["20a54451a0da8c53aecdbb4cbdec63f4b125e676f0127c3e79135b9de54c1c2f"],"family":"d7641f718c6ce50eb6e17cb2e33b64af4e709e65f7265ba244fac2ea66a363a1"}],"telecom":[{"system":"phone","value":"7911 046649"}],"gender":"other","birthDate":"2022-02-10"},"request":{"method":"PUT","url":"Patient/1004"}},{"resource":{"resourceType":"Claim","id":"5000","extension":[{"url":"https://fhir-data-converter.azurehealthcareapis.com/StructureDefinition/templateVersion","valueString":"1.0.0"},{"url":"https://fhir-data-converter.azurehealthcareapis.com/StructureDefinition/templateDate","valueString":"2021-12-01"},{"url":"https://fhir-data-converter.azurehealthcareapis.com/StructureDefinition/templateTargetMarket","valueString":"France"}],"identifier":[{"system":"b3bb76c3378e25cd888f95104ebd42f7549a57b593b6c4c1128422e5b229dc34","value":"da4cc5f8df7182966b23e00dff302d25ad4bd180d7b17cae64884080d6dd965b"}],"status":"draft","type":{"coding":[{"system":"http://terminology.hl7.org/CodeSystem/claim-type","code":"oral"}]},"use":"claim","created":"2021-12","patient":{"reference":"Patient/1004"},"enterer":{"reference":"Practitioner/5000"},"insurer":{"reference":"Organization/2020"},"provider":{"reference":"Organization/2030"},"priority":{"coding":[{"code":"normal"}]},"payee":{"type":{"coding":[{"code":"subscriber"}]}},"careTeam":[{"sequence":1,"provider":{"reference":"Practitioner/5000"}}],"diagnosis":[{"sequence":1,"diagnosisCodeableConcept":{"coding":[{"code":"60022"}]}}],"insurance":[{"sequence":1,"focal":true,"identifier":{"system":"https://fhir-data-converter.azurehealthcareapis.com/claim","value":"12345"},"coverage":{"reference":"Coverage/9876B1"}}],"item":[{"sequence":1,"careTeamSequence":[1],"productOrService":{"coding":[{"code":"11875059479265419"}]},"servicedDate":"1982-02-21","unitPrice":{"value":123,"currency":"EUR"},"net":{"value":123,"currency":"EUR"}}],"meta":{"security":[{"system":"http://terminology.hl7.org/CodeSystem/v3-ObservationValue","code":"CRYTOHASH","display":"cryptographic hash function"},{"code":"PERTURBED","display":"exact value is replaced with another exact value"},{"code":"GENERALIZED","display":"exact value is replaced with a general value"}]}},"request":{"method":"PUT","url":"Claim/5000"}},{"resource":{"resourceType":"Organization","id":"2020","extension":[{"url":"https://fhir-data-converter.azurehealthcareapis.com/StructureDefinition/templateVersion","valueString":"1.0.0"},{"url":"https://fhir-data-converter.azurehealthcareapis.com/StructureDefinition/templateDate","valueString":"2021-12-01"},{"url":"https://fhir-data-converter.azurehealthcareapis.com/StructureDefinition/templateTargetMarket","valueString":"France"}],"identifier":[{"system":"https://fhir-data-converter.azurehealthcareapis.com/organization","value":"org-2020"}],"name":"The Insurance Company","alias":["The Insurance Company"],"meta":{"security":[{"system":"http://terminology.hl7.org/CodeSystem/v3-ObservationValue","code":"REDACTED","display":"redacted"}]}},"request":{"method":"PUT","url":"Organization/2020"}},{"resource":{"resourceType":"Organization","id":"2030","extension":[{"url":"https://fhir-data-converter.azurehealthcareapis.com/StructureDefinition/templateVersion","valueString":"1.0.0"},{"url":"https://fhir-data-converter.azurehealthcareapis.com/StructureDefinition/templateDate","valueString":"2021-12-01"},{"url":"https://fhir-data-converter.azurehealthcareapis.com/StructureDefinition/templateTargetMarket","valueString":"France"}],"identifier":[{"system":"https://fhir-data-converter.azurehealthcareapis.com/organization","value":"org-2030"}],"name":"UK Medical Providers","alias":["UK Medical Providers"],"meta":{"security":[{"system":"http://terminology.hl7.org/CodeSystem/v3-ObservationValue","code":"REDACTED","display":"redacted"}]}},"request":{"method":"PUT","url":"Organization/2030"}},{"resource":{"resourceType":"Practitioner","id":"5000","extension":[{"url":"https://fhir-data-converter.azurehealthcareapis.com/StructureDefinition/templateVersion","valueString":"1.0.0"},{"url":"https://fhir-data-converter.azurehealthcareapis.com/StructureDefinition/templateDate","valueString":"2021-12-01"},{"url":"https://fhir-data-converter.azurehealthcareapis.com/StructureDefinition/templateTargetMarket","valueString":"France"}],"identifier":[{"system":"7dd09881c2b9ae35bb15df722383c63734e26ae86b047fc0f8bf6fd4c91fb5c4","value":"9ddae218d07c9ff5f8a2aac140d7868cbff4f2da61d166a340eac26b323edd50"}],"name":[{"use":"official","given":["e7985a70a1d324e3022628e3bdc5989e6b92cd7f9cb09cca9307e7a0d6865193"],"family":"e7985a70a1d324e3022628e3bdc5989e6b92cd7f9cb09cca9307e7a0d6865193"}],"meta":{"security":[{"system":"http://terminology.hl7.org/CodeSystem/v3-ObservationValue","code":"REDACTED","display":"redacted"},{"system":"http://terminology.hl7.org/CodeSystem/v3-ObservationValue","code":"CRYTOHASH","display":"cryptographic hash function"}]}},"request":{"method":"PUT","url":"Practitioner/5000"}}],"meta":{"security":[{"system":"http://terminology.hl7.org/CodeSystem/v3-ObservationValue","code":"REDACTED","display":"redacted"},{"system":"http://terminology.hl7.org/CodeSystem/v3-ObservationValue","code":"CRYTOHASH","display":"cryptographic hash function"},{"code":"PERTURBED","display":"exact value is replaced with another exact value"},{"code":"GENERALIZED","display":"exact value is replaced with a general value"}]}}
{"resourceType":"Bundle","type":"batch","entry":[{"resource":{"resourceType":"Patient","id":"1003","extension":[{"url":"https://fhir-data-converter.azurehealthcareapis.com/StructureDefinition/templateVersion","valueString":"1.0.0"},{"url":"https://fhir-data-converter.azurehealthcareapis.com/StructureDefinition/templateDate","valueString":"2021-12-01"},{"url":"https://fhir-data-converter.azurehealthcareapis.com/StructureDefinition/templateTargetMarket","valueString":"France"}],"identifier":[{"system":"43a2152b3c7855d3f80a2f9ae0b604a7aa948f4a31bca7997359690c6f6397af","value":"1db7a303a5df64efaf57e068e97c249d3d54721115d8190038932643967557cd"}],"meta":{"profile":["https://fhir-data-converter.azurehealthcareapis.com/StructureDefinition/FHIRPatientProfile"],"security":[{"system":"http://terminology.hl7.org/CodeSystem/v3-ObservationValue","code":"REDACTED","display":"redacted"},{"system":"http://terminology.hl7.org/CodeSystem/v3-ObservationValue","code":"CRYTOHASH","display":"cryptographic hash function"},{"code":"PERTURBED","display":"exact value is replaced with another exact value"}]},"name":[{"use":"official","given":["924134c4ad6423970926908f6e166a71068eb31bde38d19e08af68e827d21905"],"family":"1cee9920dc3da4b75238d39577d0f889a742c56633c8328b9f84158b5145c448"}],"telecom":[{"system":"phone","value":"7457 583736"}],"gender":"other","birthDate":"2022-02-10"},"request":{"method":"PUT","url":"Patient/1003"}},{"resource":{"resourceType":"Claim","id":"6000","extension":[{"url":"https://fhir-data-converter.azurehealthcareapis.com/StructureDefinition/templateVersion","valueString":"1.0.0"},{"url":"https://fhir-data-converter.azurehealthcareapis.com/StructureDefinition/templateDate","valueString":"2021-12-01"},{"url":"https://fhir-data-converter.azurehealthcareapis.com/StructureDefinition/templateTargetMarket","valueString":"France"}],"identifier":[{"system":"b3bb76c3378e25cd888f95104ebd42f7549a57b593b6c4c1128422e5b229dc34","value":"257e2d70d0bc8ca0fa1d17614acf5cc68d34b258100f5b4bf1969217ad573ea8"}],"status":"active","type":{"coding":[{"system":"http://terminology.hl7.org/CodeSystem/claim-type","code":"oral"}]},"use":"claim","created":"2021-12","patient":{"reference":"Patient/1003"},"enterer":{"reference":"Practitioner/5001"},"insurer":{"reference":"Organization/2021"},"provider":{"reference":"Organization/2031"},"priority":{"coding":[{"code":"normal"}]},"payee":{"type":{"coding":[{"code":"subscriber"}]}},"careTeam":[{"sequence":1,"provider":{"reference":"Practitioner/5001"}}],"diagnosis":[{"sequence":1,"diagnosisCodeableConcept":{"coding":[{"code":"60022"}]}}],"insurance":[{"sequence":1,"focal":true,"identifier":{"system":"https://fhir-data-converter.azurehealthcareapis.com/claim","value":"12345"},"coverage":{"reference":"Coverage/9876B1"}}],"item":[{"sequence":1,"careTeamSequence":[1],"productOrService":{"coding":[{"code":"11875059479265419"}]},"servicedDate":"1982-02-21","unitPrice":{"value":511,"currency":"EUR"},"net":{"value":511,"currency":"EUR"}}],"meta":{"security":[{"system":"http://terminology.hl7.org/CodeSystem/v3-ObservationValue","code":"CRYTOHASH","display":"cryptographic hash function"},{"code":"PERTURBED","display":"exact value is replaced with another exact value"},{"code":"GENERALIZED","display":"exact value is replaced with a general value"}]}},"request":{"method":"PUT","url":"Claim/6000"}},{"resource":{"resourceType":"Organization","id":"2021","extension":[{"url":"https://fhir-data-converter.azurehealthcareapis.com/StructureDefinition/templateVersion","valueString":"1.0.0"},{"url":"https://fhir-data-converter.azurehealthcareapis.com/StructureDefinition/templateDate","valueString":"2021-12-01"},{"url":"https://fhir-data-converter.azurehealthcareapis.com/StructureDefinition/templateTargetMarket","valueString":"France"}],"identifier":[{"system":"https://fhir-data-converter.azurehealthcareapis.com/organization","value":"org-2021"}],"name":"Safe-House","alias":["Safe-House"],"meta":{"security":[{"system":"http://terminology.hl7.org/CodeSystem/v3-ObservationValue","code":"REDACTED","display":"redacted"}]}},"request":{"method":"PUT","url":"Organization/2021"}},{"resource":{"resourceType":"Organization","id":"2031","extension":[{"url":"https://fhir-data-converter.azurehealthcareapis.com/StructureDefinition/templateVersion","valueString":"1.0.0"},{"url":"https://fhir-data-converter.azurehealthcareapis.com/StructureDefinition/templateDate","valueString":"2021-12-01"},{"url":"https://fhir-data-converter.azurehealthcareapis.com/StructureDefinition/templateTargetMarket","valueString":"France"}],"identifier":[{"system":"https://fhir-data-converter.azurehealthcareapis.com/organization","value":"org-2031"}],"name":"Crawford Providers","alias":["Crawford Providers"],"meta":{"security":[{"system":"http://terminology.hl7.org/CodeSystem/v3-ObservationValue","code":"REDACTED","display":"redacted"}]}},"request":{"method":"PUT","url":"Organization/2031"}},{"resource":{"resourceType":"Practitioner","id":"5001","extension":[{"url":"https://fhir-data-converter.azurehealthcareapis.com/StructureDefinition/templateVersion","valueString":"1.0.0"},{"url":"https://fhir-data-converter.azurehealthcareapis.com/StructureDefinition/templateDate","valueString":"2021-12-01"},{"url":"https://fhir-data-converter.azurehealthcareapis.com/StructureDefinition/templateTargetMarket","valueString":"France"}],"identifier":[{"system":"7dd09881c2b9ae35bb15df722383c63734e26ae86b047fc0f8bf6fd4c91fb5c4","value":"bb6a64fdda08526c022e43cdbb82d682968efda3ab74d8eba913c25f1d13762e"}],"name":[{"use":"official","given":["22c39ef7b5e17a9f8457d7a8e3fa6690a677dcdb8f8672fb36cf53189add31f7"],"family":"22c39ef7b5e17a9f8457d7a8e3fa6690a677dcdb8f8672fb36cf53189add31f7"}],"meta":{"security":[{"system":"http://terminology.hl7.org/CodeSystem/v3-ObservationValue","code":"REDACTED","display":"redacted"},{"system":"http://terminology.hl7.org/CodeSystem/v3-ObservationValue","code":"CRYTOHASH","display":"cryptographic hash function"}]}},"request":{"method":"PUT","url":"Practitioner/5001"}}],"meta":{"security":[{"system":"http://terminology.hl7.org/CodeSystem/v3-ObservationValue","code":"REDACTED","display":"redacted"},{"system":"http://terminology.hl7.org/CodeSystem/v3-ObservationValue","code":"CRYTOHASH","display":"cryptographic hash function"},{"code":"PERTURBED","display":"exact value is replaced with another exact value"},{"code":"GENERALIZED","display":"exact value is replaced with a general value"}]}}
{"resourceType":"Bundle","type":"batch","entry":[{"resource":{"resourceType":"Patient","id":"1002","extension":[{"url":"https://fhir-data-converter.azurehealthcareapis.com/StructureDefinition/templateVersion","valueString":"1.0.0"},{"url":"https://fhir-data-converter.azurehealthcareapis.com/StructureDefinition/templateDate","valueString":"2021-12-01"},{"url":"https://fhir-data-converter.azurehealthcareapis.com/StructureDefinition/templateTargetMarket","valueString":"France"}],"identifier":[{"system":"43a2152b3c7855d3f80a2f9ae0b604a7aa948f4a31bca7997359690c6f6397af","value":"2915dbe66e68f3a05b782559cbb0b6f24d79ecb82997ba7f0e671409a2eee335"}],"meta":{"profile":["https://fhir-data-converter.azurehealthcareapis.com/StructureDefinition/FHIRPatientProfile"],"security":[{"system":"http://terminology.hl7.org/CodeSystem/v3-ObservationValue","code":"REDACTED","display":"redacted"},{"system":"http://terminology.hl7.org/CodeSystem/v3-ObservationValue","code":"CRYTOHASH","display":"cryptographic hash function"},{"code":"PERTURBED","display":"exact value is replaced with another exact value"}]},"name":[{"use":"official","given":["3f0c5b6fd75af22013ec2e66d0bae93717b7d4d967c2ad00f444e22ba1452654"],"family":"77933424df9448976ad416c4e3cf34545f8072dbd3fef818a8941f0f4c109f6c"}],"telecom":[{"system":"phone","value":"7911 228350"}],"gender":"other","birthDate":"2022-02-10"},"request":{"method":"PUT","url":"Patient/1002"}},{"resource":{"resourceType":"Claim","id":"7000","extension":[{"url":"https://fhir-data-converter.azurehealthcareapis.com/StructureDefinition/templateVersion","valueString":"1.0.0"},{"url":"https://fhir-data-converter.azurehealthcareapis.com/StructureDefinition/templateDate","valueString":"2021-12-01"},{"url":"https://fhir-data-converter.azurehealthcareapis.com/StructureDefinition/templateTargetMarket","valueString":"France"}],"identifier":[{"system":"b3bb76c3378e25cd888f95104ebd42f7549a57b593b6c4c1128422e5b229dc34","value":"bfc1be4e3882ef7b09998f4501165166bc98c32b5fbd966b920da39dc3685ae5"}],"status":"active","type":{"coding":[{"system":"http://terminology.hl7.org/CodeSystem/claim-type","code":"oral"}]},"use":"claim","created":"2021-12","patient":{"reference":"Patient/1002"},"enterer":{"reference":"Practitioner/5002"},"insurer":{"reference":"Organization/2022"},"provider":{"reference":"Organization/2032"},"priority":{"coding":[{"code":"normal"}]},"payee":{"type":{"coding":[{"code":"subscriber"}]}},"careTeam":[{"sequence":1,"provider":{"reference":"Practitioner/5002"}}],"diagnosis":[{"sequence":1,"diagnosisCodeableConcept":{"coding":[{"code":"60022"}]}}],"insurance":[{"sequence":1,"focal":true,"identifier":{"system":"https://fhir-data-converter.azurehealthcareapis.com/claim","value":"12345"},"coverage":{"reference":"Coverage/9876B1"}}],"item":[{"sequence":1,"careTeamSequence":[1],"productOrService":{"coding":[{"code":"11875059479265419"}]},"servicedDate":"1982-02-21","unitPrice":{"value":12345,"currency":"EUR"},"net":{"value":12345,"currency":"EUR"}}],"meta":{"security":[{"system":"http://terminology.hl7.org/CodeSystem/v3-ObservationValue","code":"CRYTOHASH","display":"cryptographic hash function"},{"code":"PERTURBED","display":"exact value is replaced with another exact value"},{"code":"GENERALIZED","display":"exact value is replaced with a general value"}]}},"request":{"method":"PUT","url":"Claim/7000"}},{"resource":{"resourceType":"Organization","id":"2022","extension":[{"url":"https://fhir-data-converter.azurehealthcareapis.com/StructureDefinition/templateVersion","valueString":"1.0.0"},{"url":"https://fhir-data-converter.azurehealthcareapis.com/StructureDefinition/templateDate","valueString":"2021-12-01"},{"url":"https://fhir-data-converter.azurehealthcareapis.com/StructureDefinition/templateTargetMarket","valueString":"France"}],"identifier":[{"system":"https://fhir-data-converter.azurehealthcareapis.com/organization","value":"org-2022"}],"name":"Broadway Insurances","alias":["Broadway Insurances"],"meta":{"security":[{"system":"http://terminology.hl7.org/CodeSystem/v3-ObservationValue","code":"REDACTED","display":"redacted"}]}},"request":{"method":"PUT","url":"Organization/2022"}},{"resource":{"resourceType":"Organization","id":"2032","extension":[{"url":"https://fhir-data-converter.azurehealthcareapis.com/StructureDefinition/templateVersion","valueString":"1.0.0"},{"url":"https://fhir-data-converter.azurehealthcareapis.com/StructureDefinition/templateDate","valueString":"2021-12-01"},{"url":"https://fhir-data-converter.azurehealthcareapis.com/StructureDefinition/templateTargetMarket","valueString":"France"}],"identifier":[{"system":"https://fhir-data-converter.azurehealthcareapis.com/organization","value":"org-2032"}],"name":"The Provider","alias":["The Provider"],"meta":{"security":[{"system":"http://terminology.hl7.org/CodeSystem/v3-ObservationValue","code":"REDACTED","display":"redacted"}]}},"request":{"method":"PUT","url":"Organization/2032"}},{"resource":{"resourceType":"Practitioner","id":"5002","extension":[{"url":"https://fhir-data-converter.azurehealthcareapis.com/StructureDefinition/templateVersion","valueString":"1.0.0"},{"url":"https://fhir-data-converter.azurehealthcareapis.com/StructureDefinition/templateDate","valueString":"2021-12-01"},{"url":"https://fhir-data-converter.azurehealthcareapis.com/StructureDefinition/templateTargetMarket","valueString":"France"}],"identifier":[{"system":"7dd09881c2b9ae35bb15df722383c63734e26ae86b047fc0f8bf6fd4c91fb5c4","value":"c08311584947bca6b375b09d8960a1172c8a36b96d93b970cc9f99a24530a544"}],"name":[{"use":"official","given":["d46054324d18c593f91c1daa8ca9aad273964649340ed38d0851151f1b822ae8"],"family":"d46054324d18c593f91c1daa8ca9aad273964649340ed38d0851151f1b822ae8"}],"meta":{"security":[{"system":"http://terminology.hl7.org/CodeSystem/v3-ObservationValue","code":"REDACTED","display":"redacted"},{"system":"http://terminology.hl7.org/CodeSystem/v3-ObservationValue","code":"CRYTOHASH","display":"cryptographic hash function"}]}},"request":{"method":"PUT","url":"Practitioner/5002"}}],"meta":{"security":[{"system":"http://terminology.hl7.org/CodeSystem/v3-ObservationValue","code":"REDACTED","display":"redacted"},{"system":"http://terminology.hl7.org/CodeSystem/v3-ObservationValue","code":"CRYTOHASH","display":"cryptographic hash function"},{"code":"PERTURBED","display":"exact value is replaced with another exact value"},{"code":"GENERALIZED","display":"exact value is replaced with a general value"}]}}
{"resourceType":"Bundle","type":"batch","entry":[{"resource":{"resourceType":"Patient","id":"1001","extension":[{"url":"https://fhir-data-converter.azurehealthcareapis.com/StructureDefinition/templateVersion","valueString":"1.0.0"},{"url":"https://fhir-data-converter.azurehealthcareapis.com/StructureDefinition/templateDate","valueString":"2021-12-01"},{"url":"https://fhir-data-converter.azurehealthcareapis.com/StructureDefinition/templateTargetMarket","valueString":"France"}],"identifier":[{"system":"43a2152b3c7855d3f80a2f9ae0b604a7aa948f4a31bca7997359690c6f6397af","value":"9f375c83a9c1b4f75f01ff2d3c4c7e6cd03f22db9337128ff94f65d82fddd08a"}],"meta":{"profile":["https://fhir-data-converter.azurehealthcareapis.com/StructureDefinition/FHIRPatientProfile"],"security":[{"system":"http://terminology.hl7.org/CodeSystem/v3-ObservationValue","code":"REDACTED","display":"redacted"},{"system":"http://terminology.hl7.org/CodeSystem/v3-ObservationValue","code":"CRYTOHASH","display":"cryptographic hash function"},{"code":"PERTURBED","display":"exact value is replaced with another exact value"}]},"name":[{"use":"official","given":["556e84d1f8bef64e9f5fe347e8b0dd6e5ecd5706c7840a61d2aba7fb85f64030"],"family":"098d31f9ea7c27c9a824dd361f917afaffbcf9bf61a30c9f1413e6b9b2bbcc29"}],"telecom":[{"system":"phone","value":"7281 381935"}],"gender":"other","birthDate":"2022-02-10"},"request":{"method":"PUT","url":"Patient/1001"}},{"resource":{"resourceType":"Claim","id":"8000","extension":[{"url":"https://fhir-data-converter.azurehealthcareapis.com/StructureDefinition/templateVersion","valueString":"1.0.0"},{"url":"https://fhir-data-converter.azurehealthcareapis.com/StructureDefinition/templateDate","valueString":"2021-12-01"},{"url":"https://fhir-data-converter.azurehealthcareapis.com/StructureDefinition/templateTargetMarket","valueString":"France"}],"identifier":[{"system":"b3bb76c3378e25cd888f95104ebd42f7549a57b593b6c4c1128422e5b229dc34","value":"7fe0bdb444c9162a5121f53db54201f41e745a3e110f1727981e2cb0210534c4"}],"status":"draft","type":{"coding":[{"system":"http://terminology.hl7.org/CodeSystem/claim-type","code":"oral"}]},"use":"claim","created":"2021-12","patient":{"reference":"Patient/1001"},"enterer":{"reference":"Practitioner/5003"},"insurer":{"reference":"Organization/2023"},"provider":{"reference":"Organization/2033"},"priority":{"coding":[{"code":"normal"}]},"payee":{"type":{"coding":[{"code":"subscriber"}]}},"careTeam":[{"sequence":1,"provider":{"reference":"Practitioner/5003"}}],"diagnosis":[{"sequence":1,"diagnosisCodeableConcept":{"coding":[{"code":"60022"}]}}],"insurance":[{"sequence":1,"focal":true,"identifier":{"system":"https://fhir-data-converter.azurehealthcareapis.com/claim","value":"12345"},"coverage":{"reference":"Coverage/9876B1"}}],"item":[{"sequence":1,"careTeamSequence":[1],"productOrService":{"coding":[{"code":"11875059479265419"}]},"servicedDate":"1982-02-21","unitPrice":{"value":879,"currency":"EUR"},"net":{"value":879,"currency":"EUR"}}],"meta":{"security":[{"system":"http://terminology.hl7.org/CodeSystem/v3-ObservationValue","code":"CRYTOHASH","display":"cryptographic hash function"},{"code":"PERTURBED","display":"exact value is replaced with another exact value"},{"code":"GENERALIZED","display":"exact value is replaced with a general value"}]}},"request":{"method":"PUT","url":"Claim/8000"}},{"resource":{"resourceType":"Organization","id":"2023","extension":[{"url":"https://fhir-data-converter.azurehealthcareapis.com/StructureDefinition/templateVersion","valueString":"1.0.0"},{"url":"https://fhir-data-converter.azurehealthcareapis.com/StructureDefinition/templateDate","valueString":"2021-12-01"},{"url":"https://fhir-data-converter.azurehealthcareapis.com/StructureDefinition/templateTargetMarket","valueString":"France"}],"identifier":[{"system":"https://fhir-data-converter.azurehealthcareapis.com/organization","value":"org-2023"}],"name":"St Helens Insurance","alias":["St Helens Insurance"],"meta":{"security":[{"system":"http://terminology.hl7.org/CodeSystem/v3-ObservationValue","code":"REDACTED","display":"redacted"}]}},"request":{"method":"PUT","url":"Organization/2023"}},{"resource":{"resourceType":"Organization","id":"2033","extension":[{"url":"https://fhir-data-converter.azurehealthcareapis.com/StructureDefinition/templateVersion","valueString":"1.0.0"},{"url":"https://fhir-data-converter.azurehealthcareapis.com/StructureDefinition/templateDate","valueString":"2021-12-01"},{"url":"https://fhir-data-converter.azurehealthcareapis.com/StructureDefinition/templateTargetMarket","valueString":"France"}],"identifier":[{"system":"https://fhir-data-converter.azurehealthcareapis.com/organization","value":"org-2033"}],"name":"MedProv","alias":["MedProv"],"meta":{"security":[{"system":"http://terminology.hl7.org/CodeSystem/v3-ObservationValue","code":"REDACTED","display":"redacted"}]}},"request":{"method":"PUT","url":"Organization/2033"}},{"resource":{"resourceType":"Practitioner","id":"5003","extension":[{"url":"https://fhir-data-converter.azurehealthcareapis.com/StructureDefinition/templateVersion","valueString":"1.0.0"},{"url":"https://fhir-data-converter.azurehealthcareapis.com/StructureDefinition/templateDate","valueString":"2021-12-01"},{"url":"https://fhir-data-converter.azurehealthcareapis.com/StructureDefinition/templateTargetMarket","valueString":"France"}],"identifier":[{"system":"7dd09881c2b9ae35bb15df722383c63734e26ae86b047fc0f8bf6fd4c91fb5c4","value":"36e48103e202c9dd9726585d80d6af1d2451af93699d7119aa384e88075e31b8"}],"name":[{"use":"official","given":["0fa731e23390b798a51fd3b78144a65c25cc651c43c19f2d02457c52908031f3"],"family":"0fa731e23390b798a51fd3b78144a65c25cc651c43c19f2d02457c52908031f3"}],"meta":{"security":[{"system":"http://terminology.hl7.org/CodeSystem/v3-ObservationValue","code":"REDACTED","display":"redacted"},{"system":"http://terminology.hl7.org/CodeSystem/v3-ObservationValue","code":"CRYTOHASH","display":"cryptographic hash function"}]}},"request":{"method":"PUT","url":"Practitioner/5003"}}],"meta":{"security":[{"system":"http://terminology.hl7.org/CodeSystem/v3-ObservationValue","code":"REDACTED","display":"redacted"},{"system":"http://terminology.hl7.org/CodeSystem/v3-ObservationValue","code":"CRYTOHASH","display":"cryptographic hash function"},{"code":"PERTURBED","display":"exact value is replaced with another exact value"},{"code":"GENERALIZED","display":"exact value is replaced with a general value"}]}}
{"resourceType":"Bundle","type":"batch","entry":[{"resource":{"resourceType":"Patient","id":"1000","extension":[{"url":"https://fhir-data-converter.azurehealthcareapis.com/StructureDefinition/templateVersion","valueString":"1.0.0"},{"url":"https://fhir-data-converter.azurehealthcareapis.com/StructureDefinition/templateDate","valueString":"2021-12-01"},{"url":"https://fhir-data-converter.azurehealthcareapis.com/StructureDefinition/templateTargetMarket","valueString":"France"}],"identifier":[{"system":"43a2152b3c7855d3f80a2f9ae0b604a7aa948f4a31bca7997359690c6f6397af","value":"43f5613f4f857cb60a565e39bd8b5ccf80486b00a1881ce59c9fac69a640abb5"}],"meta":{"profile":["https://fhir-data-converter.azurehealthcareapis.com/StructureDefinition/FHIRPatientProfile"],"security":[{"system":"http://terminology.hl7.org/CodeSystem/v3-ObservationValue","code":"REDACTED","display":"redacted"},{"system":"http://terminology.hl7.org/CodeSystem/v3-ObservationValue","code":"CRYTOHASH","display":"cryptographic hash function"},{"code":"PERTURBED","display":"exact value is replaced with another exact value"}]},"name":[{"use":"official","given":["9d3664fb018d03513a72f9e4adc26f32693a5d13f631ff36ff220bfd8a9ea398"],"family":"052353ac238edb3ff68be6919bbcc13faaf0509d163b6fd3d0696a642f20058f"}],"telecom":[{"system":"phone","value":"7700 109091"}],"gender":"other","birthDate":"2022-02-10"},"request":{"method":"PUT","url":"Patient/1000"}},{"resource":{"resourceType":"Claim","id":"9000","extension":[{"url":"https://fhir-data-converter.azurehealthcareapis.com/StructureDefinition/templateVersion","valueString":"1.0.0"},{"url":"https://fhir-data-converter.azurehealthcareapis.com/StructureDefinition/templateDate","valueString":"2021-12-01"},{"url":"https://fhir-data-converter.azurehealthcareapis.com/StructureDefinition/templateTargetMarket","valueString":"France"}],"identifier":[{"system":"b3bb76c3378e25cd888f95104ebd42f7549a57b593b6c4c1128422e5b229dc34","value":"3a9e993373f1df95ef36b86dd53ae4f3e9730ef6e882ccbb5625395f8d97bb33"}],"status":"active","type":{"coding":[{"system":"http://terminology.hl7.org/CodeSystem/claim-type","code":"oral"}]},"use":"claim","created":"2021-12","patient":{"reference":"Patient/1000"},"enterer":{"reference":"Practitioner/5004"},"insurer":{"reference":"Organization/2020"},"provider":{"reference":"Organization/2030"},"priority":{"coding":[{"code":"normal"}]},"payee":{"type":{"coding":[{"code":"subscriber"}]}},"careTeam":[{"sequence":1,"provider":{"reference":"Practitioner/5004"}}],"diagnosis":[{"sequence":1,"diagnosisCodeableConcept":{"coding":[{"code":"60022"}]}}],"insurance":[{"sequence":1,"focal":true,"identifier":{"system":"https://fhir-data-converter.azurehealthcareapis.com/claim","value":"12345"},"coverage":{"reference":"Coverage/9876B1"}}],"item":[{"sequence":1,"careTeamSequence":[1],"productOrService":{"coding":[{"code":"11875059479265419"}]},"servicedDate":"1982-02-21","unitPrice":{"value":234,"currency":"EUR"},"net":{"value":234,"currency":"EUR"}}],"meta":{"security":[{"system":"http://terminology.hl7.org/CodeSystem/v3-ObservationValue","code":"CRYTOHASH","display":"cryptographic hash function"},{"code":"PERTURBED","display":"exact value is replaced with another exact value"},{"code":"GENERALIZED","display":"exact value is replaced with a general value"}]}},"request":{"method":"PUT","url":"Claim/9000"}},{"resource":{"resourceType":"Organization","id":"2020","extension":[{"url":"https://fhir-data-converter.azurehealthcareapis.com/StructureDefinition/templateVersion","valueString":"1.0.0"},{"url":"https://fhir-data-converter.azurehealthcareapis.com/StructureDefinition/templateDate","valueString":"2021-12-01"},{"url":"https://fhir-data-converter.azurehealthcareapis.com/StructureDefinition/templateTargetMarket","valueString":"France"}],"identifier":[{"system":"https://fhir-data-converter.azurehealthcareapis.com/organization","value":"org-2020"}],"name":"The Insurance Company","alias":["The Insurance Company"],"meta":{"security":[{"system":"http://terminology.hl7.org/CodeSystem/v3-ObservationValue","code":"REDACTED","display":"redacted"}]}},"request":{"method":"PUT","url":"Organization/2020"}},{"resource":{"resourceType":"Organization","id":"2030","extension":[{"url":"https://fhir-data-converter.azurehealthcareapis.com/StructureDefinition/templateVersion","valueString":"1.0.0"},{"url":"https://fhir-data-converter.azurehealthcareapis.com/StructureDefinition/templateDate","valueString":"2021-12-01"},{"url":"https://fhir-data-converter.azurehealthcareapis.com/StructureDefinition/templateTargetMarket","valueString":"France"}],"identifier":[{"system":"https://fhir-data-converter.azurehealthcareapis.com/organization","value":"org-2030"}],"name":"UK Medical Providers","alias":["UK Medical Providers"],"meta":{"security":[{"system":"http://terminology.hl7.org/CodeSystem/v3-ObservationValue","code":"REDACTED","display":"redacted"}]}},"request":{"method":"PUT","url":"Organization/2030"}},{"resource":{"resourceType":"Practitioner","extension":[{"url":"https://fhir-data-converter.azurehealthcareapis.com/StructureDefinition/templateVersion","valueString":"1.0.0"},{"url":"https://fhir-data-converter.azurehealthcareapis.com/StructureDefinition/templateDate","valueString":"2021-12-01"},{"url":"https://fhir-data-converter.azurehealthcareapis.com/StructureDefinition/templateTargetMarket","valueString":"France"}],"identifier":[{"system":"7dd09881c2b9ae35bb15df722383c63734e26ae86b047fc0f8bf6fd4c91fb5c4"}],"name":[{"use":"official"}],"meta":{"security":[{"system":"http://terminology.hl7.org/CodeSystem/v3-ObservationValue","code":"REDACTED","display":"redacted"},{"system":"http://terminology.hl7.org/CodeSystem/v3-ObservationValue","code":"CRYTOHASH","display":"cryptographic hash function"}]}},"request":{"method":"PUT","url":"Practitioner/"}}],"meta":{"security":[{"system":"http://terminology.hl7.org/CodeSystem/v3-ObservationValue","code":"REDACTED","display":"redacted"},{"system":"http://terminology.hl7.org/CodeSystem/v3-ObservationValue","code":"CRYTOHASH","display":"cryptographic hash function"},{"code":"PERTURBED","display":"exact value is replaced with another exact value"},{"code":"GENERALIZED","display":"exact value is replaced with a general value"}]}}
{"resourceType":"Bundle","type":"batch","entry":[{"resource":{"resourceType":"Patient","id":"1008","extension":[{"url":"https://fhir-data-converter.azurehealthcareapis.com/StructureDefinition/templateVersion","valueString":"1.0.0"},{"url":"https://fhir-data-converter.azurehealthcareapis.com/StructureDefinition/templateDate","valueString":"2021-12-01"},{"url":"https://fhir-data-converter.azurehealthcareapis.com/StructureDefinition/templateTargetMarket","valueString":"France"}],"identifier":[{"system":"43a2152b3c7855d3f80a2f9ae0b604a7aa948f4a31bca7997359690c6f6397af","value":"1787bd03bfe7096fd6d3fdefdc993cea4f76a98c7d16f644d1439eb5e96a8ad8"}],"meta":{"profile":["https://fhir-data-converter.azurehealthcareapis.com/StructureDefinition/FHIRPatientProfile"],"security":[{"system":"http://terminology.hl7.org/CodeSystem/v3-ObservationValue","code":"REDACTED","display":"redacted"},{"system":"http://terminology.hl7.org/CodeSystem/v3-ObservationValue","code":"CRYTOHASH","display":"cryptographic hash function"},{"code":"PERTURBED","display":"exact value is replaced with another exact value"}]},"name":[{"use":"official","given":["0c39479b5c1d69ed6833e0b6a4a3dc6dc8e8d6a5b3e789176bd03c348138372a"],"family":"c58a505db47baf6a5826834cc55913b8ccfb786efcc55a7bd2dda1348ec1b33c"}],"telecom":[{"system":"phone","value":"7454 662873"}],"gender":"other","birthDate":"2022-02-10"},"request":{"method":"PUT","url":"Patient/1008"}},{"resource":{"resourceType":"Claim","id":"10000","extension":[{"url":"https://fhir-data-converter.azurehealthcareapis.com/StructureDefinition/templateVersion","valueString":"1.0.0"},{"url":"https://fhir-data-converter.azurehealthcareapis.com/StructureDefinition/templateDate","valueString":"2021-12-01"},{"url":"https://fhir-data-converter.azurehealthcareapis.com/StructureDefinition/templateTargetMarket","valueString":"France"}],"identifier":[{"system":"b3bb76c3378e25cd888f95104ebd42f7549a57b593b6c4c1128422e5b229dc34","value":"6baa3dd3f8dcff8a8ec7dd7a20d0f9485b8f4af85c57e14154927b2c9abd7baf"}],"status":"active","type":{"coding":[{"system":"http://terminology.hl7.org/CodeSystem/claim-type","code":"oral"}]},"use":"claim","created":"2021-12","patient":{"reference":"Patient/1008"},"enterer":{"reference":"Practitioner/5000"},"insurer":{"reference":"Organization/2020"},"provider":{"reference":"Organization/2030"},"priority":{"coding":[{"code":"normal"}]},"payee":{"type":{"coding":[{"code":"subscriber"}]}},"careTeam":[{"sequence":1,"provider":{"reference":"Practitioner/5000"}}],"diagnosis":[{"sequence":1,"diagnosisCodeableConcept":{"coding":[{"code":"60022"}]}}],"insurance":[{"sequence":1,"focal":true,"identifier":{"system":"https://fhir-data-converter.azurehealthcareapis.com/claim","value":"12345"},"coverage":{"reference":"Coverage/9876B1"}}],"item":[{"sequence":1,"careTeamSequence":[1],"productOrService":{"coding":[{"code":"11875059479265419"}]},"servicedDate":"1982-02-21","unitPrice":{"value":1234,"currency":"EUR"},"net":{"value":1234,"currency":"EUR"}}],"meta":{"security":[{"system":"http://terminology.hl7.org/CodeSystem/v3-ObservationValue","code":"CRYTOHASH","display":"cryptographic hash function"},{"code":"PERTURBED","display":"exact value is replaced with another exact value"},{"code":"GENERALIZED","display":"exact value is replaced with a general value"}]}},"request":{"method":"PUT","url":"Claim/10000"}},{"resource":{"resourceType":"Organization","id":"2020","extension":[{"url":"https://fhir-data-converter.azurehealthcareapis.com/StructureDefinition/templateVersion","valueString":"1.0.0"},{"url":"https://fhir-data-converter.azurehealthcareapis.com/StructureDefinition/templateDate","valueString":"2021-12-01"},{"url":"https://fhir-data-converter.azurehealthcareapis.com/StructureDefinition/templateTargetMarket","valueString":"France"}],"identifier":[{"system":"https://fhir-data-converter.azurehealthcareapis.com/organization","value":"org-2020"}],"name":"The Insurance Company","alias":["The Insurance Company"],"meta":{"security":[{"system":"http://terminology.hl7.org/CodeSystem/v3-ObservationValue","code":"REDACTED","display":"redacted"}]}},"request":{"method":"PUT","url":"Organization/2020"}},{"resource":{"resourceType":"Organization","id":"2030","extension":[{"url":"https://fhir-data-converter.azurehealthcareapis.com/StructureDefinition/templateVersion","valueString":"1.0.0"},{"url":"https://fhir-data-converter.azurehealthcareapis.com/StructureDefinition/templateDate","valueString":"2021-12-01"},{"url":"https://fhir-data-converter.azurehealthcareapis.com/StructureDefinition/templateTargetMarket","valueString":"France"}],"identifier":[{"system":"https://fhir-data-converter.azurehealthcareapis.com/organization","value":"org-2030"}],"name":"UK Medical Providers","alias":["UK Medical Providers"],"meta":{"security":[{"system":"http://terminology.hl7.org/CodeSystem/v3-ObservationValue","code":"REDACTED","display":"redacted"}]}},"request":{"method":"PUT","url":"Organization/2030"}},{"resource":{"resourceType":"Practitioner","id":"5000","extension":[{"url":"https://fhir-data-converter.azurehealthcareapis.com/StructureDefinition/templateVersion","valueString":"1.0.0"},{"url":"https://fhir-data-converter.azurehealthcareapis.com/StructureDefinition/templateDate","valueString":"2021-12-01"},{"url":"https://fhir-data-converter.azurehealthcareapis.com/StructureDefinition/templateTargetMarket","valueString":"France"}],"identifier":[{"system":"7dd09881c2b9ae35bb15df722383c63734e26ae86b047fc0f8bf6fd4c91fb5c4","value":"9ddae218d07c9ff5f8a2aac140d7868cbff4f2da61d166a340eac26b323edd50"}],"name":[{"use":"official","given":["e7985a70a1d324e3022628e3bdc5989e6b92cd7f9cb09cca9307e7a0d6865193"],"family":"e7985a70a1d324e3022628e3bdc5989e6b92cd7f9cb09cca9307e7a0d6865193"}],"meta":{"security":[{"system":"http://terminology.hl7.org/CodeSystem/v3-ObservationValue","code":"REDACTED","display":"redacted"},{"system":"http://terminology.hl7.org/CodeSystem/v3-ObservationValue","code":"CRYTOHASH","display":"cryptographic hash function"}]}},"request":{"method":"PUT","url":"Practitioner/5000"}}],"meta":{"security":[{"system":"http://terminology.hl7.org/CodeSystem/v3-ObservationValue","code":"REDACTED","display":"redacted"},{"system":"http://terminology.hl7.org/CodeSystem/v3-ObservationValue","code":"CRYTOHASH","display":"cryptographic hash function"},{"code":"PERTURBED","display":"exact value is replaced with another exact value"},{"code":"GENERALIZED","display":"exact value is replaced with a general value"}]}}
{"resourceType":"Bundle","type":"batch","entry":[{"resource":{"resourceType":"Patient","id":"1007","extension":[{"url":"https://fhir-data-converter.azurehealthcareapis.com/StructureDefinition/templateVersion","valueString":"1.0.0"},{"url":"https://fhir-data-converter.azurehealthcareapis.com/StructureDefinition/templateDate","valueString":"2021-12-01"},{"url":"https://fhir-data-converter.azurehealthcareapis.com/StructureDefinition/templateTargetMarket","valueString":"France"}],"identifier":[{"system":"43a2152b3c7855d3f80a2f9ae0b604a7aa948f4a31bca7997359690c6f6397af","value":"6ff97db4c8f953f0bc10804ec4b949de2b8c6d910e96fad27c04e830dc5bf707"}],"meta":{"profile":["https://fhir-data-converter.azurehealthcareapis.com/StructureDefinition/FHIRPatientProfile"],"security":[{"system":"http://terminology.hl7.org/CodeSystem/v3-ObservationValue","code":"REDACTED","display":"redacted"},{"system":"http://terminology.hl7.org/CodeSystem/v3-ObservationValue","code":"CRYTOHASH","display":"cryptographic hash function"},{"code":"PERTURBED","display":"exact value is replaced with another exact value"}]},"name":[{"use":"official","given":["07ccd732ced66c0d5de05681996565ddc1d70830fffecfd8881e8a3598ad15f9"],"family":"5451d8f05b50471e0e7503258552394841f595c8275eb02603f29b17ab4f6897"}],"telecom":[{"system":"phone","value":"7213 072284"}],"gender":"other","birthDate":"2022-02-10"},"request":{"method":"PUT","url":"Patient/1007"}},{"resource":{"resourceType":"Claim","id":"11000","extension":[{"url":"https://fhir-data-converter.azurehealthcareapis.com/StructureDefinition/templateVersion","valueString":"1.0.0"},{"url":"https://fhir-data-converter.azurehealthcareapis.com/StructureDefinition/templateDate","valueString":"2021-12-01"},{"url":"https://fhir-data-converter.azurehealthcareapis.com/StructureDefinition/templateTargetMarket","valueString":"France"}],"identifier":[{"system":"b3bb76c3378e25cd888f95104ebd42f7549a57b593b6c4c1128422e5b229dc34","value":"1d4a7bb90f946b69cadd88bc20306091865a42fb6f9c7da15e939835b1b8a44f"}],"status":"draft","type":{"coding":[{"system":"http://terminology.hl7.org/CodeSystem/claim-type","code":"oral"}]},"use":"claim","created":"2021-12","patient":{"reference":"Patient/1007"},"enterer":{"reference":"Practitioner/5001"},"insurer":{"reference":"Organization/2021"},"provider":{"reference":"Organization/2031"},"priority":{"coding":[{"code":"normal"}]},"payee":{"type":{"coding":[{"code":"subscriber"}]}},"careTeam":[{"sequence":1,"provider":{"reference":"Practitioner/5001"}}],"diagnosis":[{"sequence":1,"diagnosisCodeableConcept":{"coding":[{"code":"60022"}]}}],"insurance":[{"sequence":1,"focal":true,"identifier":{"system":"https://fhir-data-converter.azurehealthcareapis.com/claim","value":"12345"},"coverage":{"reference":"Coverage/9876B1"}}],"item":[{"sequence":1,"careTeamSequence":[1],"productOrService":{"coding":[{"code":"11875059479265419"}]},"servicedDate":"1982-02-21","unitPrice":{"value":5785,"currency":"EUR"},"net":{"value":5785,"currency":"EUR"}}],"meta":{"security":[{"system":"http://terminology.hl7.org/CodeSystem/v3-ObservationValue","code":"CRYTOHASH","display":"cryptographic hash function"},{"code":"PERTURBED","display":"exact value is replaced with another exact value"},{"code":"GENERALIZED","display":"exact value is replaced with a general value"}]}},"request":{"method":"PUT","url":"Claim/11000"}},{"resource":{"resourceType":"Organization","id":"2021","extension":[{"url":"https://fhir-data-converter.azurehealthcareapis.com/StructureDefinition/templateVersion","valueString":"1.0.0"},{"url":"https://fhir-data-converter.azurehealthcareapis.com/StructureDefinition/templateDate","valueString":"2021-12-01"},{"url":"https://fhir-data-converter.azurehealthcareapis.com/StructureDefinition/templateTargetMarket","valueString":"France"}],"identifier":[{"system":"https://fhir-data-converter.azurehealthcareapis.com/organization","value":"org-2021"}],"name":"Safe-House","alias":["Safe-House"],"meta":{"security":[{"system":"http://terminology.hl7.org/CodeSystem/v3-ObservationValue","code":"REDACTED","display":"redacted"}]}},"request":{"method":"PUT","url":"Organization/2021"}},{"resource":{"resourceType":"Organization","id":"2031","extension":[{"url":"https://fhir-data-converter.azurehealthcareapis.com/StructureDefinition/templateVersion","valueString":"1.0.0"},{"url":"https://fhir-data-converter.azurehealthcareapis.com/StructureDefinition/templateDate","valueString":"2021-12-01"},{"url":"https://fhir-data-converter.azurehealthcareapis.com/StructureDefinition/templateTargetMarket","valueString":"France"}],"identifier":[{"system":"https://fhir-data-converter.azurehealthcareapis.com/organization","value":"org-2031"}],"name":"Crawford Providers","alias":["Crawford Providers"],"meta":{"security":[{"system":"http://terminology.hl7.org/CodeSystem/v3-ObservationValue","code":"REDACTED","display":"redacted"}]}},"request":{"method":"PUT","url":"Organization/2031"}},{"resource":{"resourceType":"Practitioner","id":"5001","extension":[{"url":"https://fhir-data-converter.azurehealthcareapis.com/StructureDefinition/templateVersion","valueString":"1.0.0"},{"url":"https://fhir-data-converter.azurehealthcareapis.com/StructureDefinition/templateDate","valueString":"2021-12-01"},{"url":"https://fhir-data-converter.azurehealthcareapis.com/StructureDefinition/templateTargetMarket","valueString":"France"}],"identifier":[{"system":"7dd09881c2b9ae35bb15df722383c63734e26ae86b047fc0f8bf6fd4c91fb5c4","value":"bb6a64fdda08526c022e43cdbb82d682968efda3ab74d8eba913c25f1d13762e"}],"name":[{"use":"official","given":["22c39ef7b5e17a9f8457d7a8e3fa6690a677dcdb8f8672fb36cf53189add31f7"],"family":"22c39ef7b5e17a9f8457d7a8e3fa6690a677dcdb8f8672fb36cf53189add31f7"}],"meta":{"security":[{"system":"http://terminology.hl7.org/CodeSystem/v3-ObservationValue","code":"REDACTED","display":"redacted"},{"system":"http://terminology.hl7.org/CodeSystem/v3-ObservationValue","code":"CRYTOHASH","display":"cryptographic hash function"}]}},"request":{"method":"PUT","url":"Practitioner/5001"}}],"meta":{"security":[{"system":"http://terminology.hl7.org/CodeSystem/v3-ObservationValue","code":"REDACTED","display":"redacted"},{"system":"http://terminology.hl7.org/CodeSystem/v3-ObservationValue","code":"CRYTOHASH","display":"cryptographic hash function"},{"code":"PERTURBED","display":"exact value is replaced with another exact value"},{"code":"GENERALIZED","display":"exact value is replaced with a general value"}]}}