{"resourceType":"Bundle","type":"batch","entry":[{"resource":{"resourceType":"Patient","id":"1008","extension":[{"url":"https://fhir-data-converter.azurehealthcareapis.com/StructureDefinition/templateVersion","valueString":"1.0.0"},{"url":"https://fhir-data-converter.azurehealthcareapis.com/StructureDefinition/templateDate","valueString":"2021-12-01"},{"url":"https://fhir-data-converter.azurehealthcareapis.com/StructureDefinition/templateTargetMarket","valueString":"France"}],"identifier":[{"system":"43a2152b3c7855d3f80a2f9ae0b604a7aa948f4a31bca7997359690c6f6397af","value":"1787bd03bfe7096fd6d3fdefdc993cea4f76a98c7d16f644d1439eb5e96a8ad8"}],"meta":{"profile":["https://fhir-data-converter.azurehealthcareapis.com/StructureDefinition/FHIRPatientProfile"],"security":[{"system":"http://terminology.hl7.org/CodeSystem/v3-ObservationValue","code":"REDACTED","display":"redacted"},{"system":"http://terminology.hl7.org/CodeSystem/v3-ObservationValue","code":"CRYTOHASH","display":"cryptographic hash function"},{"code":"PERTURBED","display":"exact value is replaced with another exact value"}]},"name":[{"use":"official","given":["0c39479b5c1d69ed6833e0b6a4a3dc6dc8e8d6a5b3e789176bd03c348138372a"],"family":"c58a505db47baf6a5826834cc55913b8ccfb786efcc55a7bd2dda1348ec1b33c"}],"telecom":[{"system":"phone","value":"7454 662873"}],"gender":"other","birthDate":"2022-02-10"},"request":{"method":"PUT","url":"Patient/1008"}},{"resource":{"resourceType":"Claim","id":"1000","extension":[{"url":"https://fhir-data-converter.azurehealthcareapis.com/StructureDefinition/templateVersion","valueString":"1.0.0"},{"url":"https://fhir-data-converter.azurehealthcareapis.com/StructureDefinition/templateDate","valueString":"2021-12-01"},{"url":"https://fhir-data-converter.azurehealthcareapis.com/StructureDefinition/templateTargetMarket","valueString":"France"}],"identifier":[{"system":"b3bb76c3378e25cd888f95104ebd42f7549a57b593b6c4c1128422e5b229dc34","value":"ac65aaadf30893499c2f6f431c69bb342d42f5e13e6e8dfb719a0394984621bf"}],"status":"active","type":{"coding":[{"system":"http://terminology.hl7.org/CodeSystem/claim-type","code":"oral"}]},"use":"claim","created":"2021-12","patient":{"reference":"Patient/1008"},"enterer":{"reference":"Practitioner/5000"},"insurer":{"reference":"Organization/2020"},"provider":{"reference":"Organization/2030"},"priority":{"coding":[{"code":"normal"}]},"payee":{"type":{"coding":[{"code":"subscriber"}]}},"careTeam":[{"sequence":1,"provider":{"reference":"Practitioner/5000"}}],"diagnosis":[{"sequence":1,"diagnosisCodeableConcept":{"coding":[{"code":"60022"}]}}],"insurance":[{"sequence":1,"focal":true,"identifier":{"system":"https://fhir-data-converter.azurehealthcareapis.com/claim","value":"12345"},"coverage":{"reference":"Coverage/9876B1"}}],"item":[{"sequence":1,"careTeamSequence":[1],"productOrService":{"coding":[{"code":"11875059479265419"}]},"servicedDate":"1982-02-21","unitPrice":{"value":1234,"currency":"EUR"},"net":{"value":1234,"currency":"EUR"}}],"meta":{"security":[{"system":"http://terminology.hl7.org/CodeSystem/v3-ObservationValue","code":"CRYTOHASH","display":"cryptographic hash function"},{"code":"PERTURBED","display":"exact value is replaced with another exact value"},{"code":"GENERALIZED","display":"exact value is replaced with a general value"}]}},"request":{"method":"PUT","url":"Claim/1000"}},{"resource":{"resourceType":"Organization","id":"2020","extension":[{"url":"https://fhir-data-converter.azurehealthcareapis.com/StructureDefinition/templateVersion","valueString":"1.0.0"},{"url":"https://fhir-data-converter.azurehealthcareapis.com/StructureDefinition/templateDate","valueString":"2021-12-01"},{"url":"https://fhir-data-converter.azurehealthcareapis.com/StructureDefinition/templateTargetMarket","valueString":"France"}],"identifier":[{"system":"https://fhir-data-converter.azurehealthcareapis.com/organization","value":"org-2020"}],"name":"The Insurance Company","alias":["The Insurance Company"],"meta":{"security":[{"system":"http://terminology.hl7.org/CodeSystem/v3-ObservationValue","code":"REDACTED","display":"redacted"}]}},"request":{"method":"PUT","url":"Organization/2020"}},{"resource":{"resourceType":"Organization","id":"2030","extension":[{"url":"https://fhir-data-converter.azurehealthcareapis.com/StructureDefinition/templateVersion","valueString":"1.0.0"},{"url":"https://fhir-data-converter.azurehealthcareapis.com/StructureDefinition/templateDate","valueString":"2021-12-01"},{"url":"https://fhir-data-converter.azurehealthcareapis.com/StructureDefinition/templateTargetMarket","valueString":"France"}],"identifier":[{"system":"https://fhir-data-converter.azurehealthcareapis.com/organization","value":"org-2030"}],"name":"UK Medical Providers","alias":["UK Medical Providers"],"meta":{"security":[{"system":"http://terminology.hl7.org/CodeSystem/v3-ObservationValue","code":"REDACTED","display":"redacted"}]}},"request":{"method":"PUT","url":"Organization/2030"}},{"resource":{"resourceType":"Practitioner","id":"5000","extension":[{"url":"https://fhir-data-converter.azurehealthcareapis.com/StructureDefinition/templateVersion","valueString":"1.0.0"},{"url":"https://fhir-data-converter.azurehealthcareapis.com/StructureDefinition/templateDate","valueString":"2021-12-01"},{"url":"https://fhir-data-converter.azurehealthcareapis.com/StructureDefinition/templateTargetMarket","valueString":"France"}],"identifier":[{"system":"7dd09881c2b9ae35bb15df722383c63734e26ae86b047fc0f8bf6fd4c91fb5c4","value":"9ddae218d07c9ff5f8a2aac140d7868cbff4f2da61d166a340eac26b323edd50"}],"name":[{"use":"official","given":["e7985a70a1d324e3022628e3bdc5989e6b92cd7f9cb09cca9307e7a0d6865193"],"family":"e7985a70a1d324e3022628e3bdc5989e6b92cd7f9cb09cca9307e7a0d6865193"}],"meta":{"security":[{"system":"http://terminology.hl7.org/CodeSystem/v3-ObservationValue","code":"REDACTED","display":"redacted"},{"system":"http://terminology.hl7.org/CodeSystem/v3-ObservationValue","code":"CRYTOHASH","display":"cryptographic hash function"}]}},"request":{"method":"PUT","url":"Practitioner/5000"}}],"meta":{"security":[{"system":"http://terminology.hl7.org/CodeSystem/v3-ObservationValue","code":"REDACTED","display":"redacted"},{"system":"http://terminology.hl7.org/CodeSystem/v3-ObservationValue","code":"CRYTOHASH","display":"cryptographic hash function"},{"code":"PERTURBED","display":"exact value is replaced with another exact value"},{"code":"GENERALIZED","display":"exact value is replaced with a general value"}]}}